<?xml version="1.0" encoding="UTF-8"?>

<Questionnaire xmlns="http://hl7.org/fhir">
  <id value="qs1"/>
  <contained>
    <ValueSet>
      <id value="vs2"/>
      <name value="Type options for PaymentNotice.target[x]"/>
      <status value="active"/>
      <description value="Type options for PaymentNotice.target[x]"/>
      <expansion>
        <identifier value="urn:uuid:06c29281-77bd-4606-83b9-3200df2a4308"/>
        <timestamp value="2016-06-06T20:22:04+00:00"/>
        <contains>
          <system value="http://hl7.org/fhir/data-types"/>
          <code value="Identifier"/>
          <display value="Identifier"/>
        </contains>
        <contains>
          <system value="http://hl7.org/fhir/resource-types"/>
          <code value="Organization"/>
          <display value="Organization"/>
        </contains>
      </expansion>
    </ValueSet>
  </contained>
  <contained>
    <ValueSet>
      <id value="vs3"/>
      <name value="Type options for PaymentNotice.provider[x]"/>
      <status value="active"/>
      <description value="Type options for PaymentNotice.provider[x]"/>
      <expansion>
        <identifier value="urn:uuid:96668a77-fb88-413c-82d5-3c936fb043e9"/>
        <timestamp value="2016-06-06T20:22:04+00:00"/>
        <contains>
          <system value="http://hl7.org/fhir/data-types"/>
          <code value="Identifier"/>
          <display value="Identifier"/>
        </contains>
        <contains>
          <system value="http://hl7.org/fhir/resource-types"/>
          <code value="Practitioner"/>
          <display value="Practitioner"/>
        </contains>
      </expansion>
    </ValueSet>
  </contained>
  <contained>
    <ValueSet>
      <id value="vs4"/>
      <name value="Type options for PaymentNotice.organization[x]"/>
      <status value="active"/>
      <description value="Type options for PaymentNotice.organization[x]"/>
      <expansion>
        <identifier value="urn:uuid:7211cea0-2014-46b7-bfcc-363422e6e5cc"/>
        <timestamp value="2016-06-06T20:22:04+00:00"/>
        <contains>
          <system value="http://hl7.org/fhir/data-types"/>
          <code value="Identifier"/>
          <display value="Identifier"/>
        </contains>
        <contains>
          <system value="http://hl7.org/fhir/resource-types"/>
          <code value="Organization"/>
          <display value="Organization"/>
        </contains>
      </expansion>
    </ValueSet>
  </contained>
  <contained>
    <ValueSet>
      <id value="vs5"/>
      <name value="Type options for PaymentNotice.request[x]"/>
      <status value="active"/>
      <description value="Type options for PaymentNotice.request[x]"/>
      <expansion>
        <identifier value="urn:uuid:dbfcfeb5-4633-408f-a50b-b08e871a2938"/>
        <timestamp value="2016-06-06T20:22:04+00:00"/>
        <contains>
          <system value="http://hl7.org/fhir/data-types"/>
          <code value="Identifier"/>
          <display value="Identifier"/>
        </contains>
        <contains>
          <system value="http://hl7.org/fhir/resource-types"/>
          <code value="Resource"/>
          <display value="Resource"/>
        </contains>
      </expansion>
    </ValueSet>
  </contained>
  <contained>
    <ValueSet>
      <id value="vs6"/>
      <name value="Type options for PaymentNotice.response[x]"/>
      <status value="active"/>
      <description value="Type options for PaymentNotice.response[x]"/>
      <expansion>
        <identifier value="urn:uuid:237bc40e-5a42-40ed-a27c-827c6a8a097e"/>
        <timestamp value="2016-06-06T20:22:04+00:00"/>
        <contains>
          <system value="http://hl7.org/fhir/data-types"/>
          <code value="Identifier"/>
          <display value="Identifier"/>
        </contains>
        <contains>
          <system value="http://hl7.org/fhir/resource-types"/>
          <code value="Resource"/>
          <display value="Resource"/>
        </contains>
      </expansion>
    </ValueSet>
  </contained>
  <identifier>
    <system value="urn:ietf:rfc:3986"/>
  </identifier>
  <status value="draft"/>
  <date value="2016-06-06T20:14:04+00:00"/>
  <publisher value="Health Level Seven International (Financial Management)"/>
  <item>
    <linkId value="PaymentNotice"/>
    <text value="PaymentNotice request"/>
    <type value="group"/>
    <required value="false"/>
    <repeats value="true"/>
    <item>
      <extension url="http://hl7.org/fhir/StructureDefinition/questionnaire-itemControl">
        <valueCodeableConcept>
          <coding>
            <system value="http://hl7.org/fhir/questionnaire-item-control"/>
            <code value="flyover"/>
            <display value="Fly-over"/>
          </coding>
        </valueCodeableConcept>
      </extension>
      <text value="This resource provides the status of the payment for goods and services rendered, and the request and response resource references."/>
      <type value="display"/>
    </item>
    <item>
      <extension url="http://hl7.org/fhir/StructureDefinition/questionnaire-maxOccurs">
        <valueInteger value="1"/>
      </extension>
      <extension url="http://hl7.org/fhir/StructureDefinition/questionnaire-fhirType">
        <valueString value="string"/>
      </extension>
      <linkId value="PaymentNotice.id"/>
      <type value="group"/>
      <required value="false"/>
      <repeats value="true"/>
      <item>
        <extension url="http://hl7.org/fhir/StructureDefinition/questionnaire-itemControl">
          <valueCodeableConcept>
            <coding>
              <system value="http://hl7.org/fhir/questionnaire-item-control"/>
              <code value="flyover"/>
              <display value="Fly-over"/>
            </coding>
          </valueCodeableConcept>
        </extension>
        <text value="The logical id of the resource, as used in the URL for the resource. Once assigned, this value never changes. The only time that a resource does not have an id is when it is being submitted to the server using a create operation. Bundles always have an id, though it is usually a generated UUID."/>
        <type value="display"/>
      </item>
      <item>
        <linkId value="PaymentNotice.id.value"/>
        <text value="Logical id of this artifact"/>
        <type value="string"/>
        <required value="false"/>
        <repeats value="false"/>
      </item>
    </item>
    <item>
      <extension url="http://hl7.org/fhir/StructureDefinition/questionnaire-maxOccurs">
        <valueInteger value="1"/>
      </extension>
      <linkId value="PaymentNotice.meta"/>
      <text value="Metadata about the resource"/>
      <type value="group"/>
      <required value="false"/>
      <repeats value="true"/>
      <item>
        <extension url="http://hl7.org/fhir/StructureDefinition/questionnaire-itemControl">
          <valueCodeableConcept>
            <coding>
              <system value="http://hl7.org/fhir/questionnaire-item-control"/>
              <code value="flyover"/>
              <display value="Fly-over"/>
            </coding>
          </valueCodeableConcept>
        </extension>
        <text value="The metadata about the resource. This is content that is maintained by the infrastructure. Changes to the content may not always be associated with version changes to the resource."/>
        <type value="display"/>
      </item>
    </item>
    <item>
      <extension url="http://hl7.org/fhir/StructureDefinition/questionnaire-maxOccurs">
        <valueInteger value="1"/>
      </extension>
      <extension url="http://hl7.org/fhir/StructureDefinition/questionnaire-fhirType">
        <valueString value="uri"/>
      </extension>
      <linkId value="PaymentNotice.implicitRules"/>
      <type value="group"/>
      <required value="false"/>
      <repeats value="true"/>
      <item>
        <extension url="http://hl7.org/fhir/StructureDefinition/questionnaire-itemControl">
          <valueCodeableConcept>
            <coding>
              <system value="http://hl7.org/fhir/questionnaire-item-control"/>
              <code value="flyover"/>
              <display value="Fly-over"/>
            </coding>
          </valueCodeableConcept>
        </extension>
        <text value="A reference to a set of rules that were followed when the resource was constructed, and which must be understood when processing the content. Asserting this rule set restricts the content to be only understood by a limited set of trading partners. This inherently limits the usefulness of the data in the long term. However, the existing health eco-system is highly fractured, and not yet ready to define, collect, and exchange data in a generally computable sense. Wherever possible, implementers and/or specification writers should avoid using this element as much as possible."/>
        <type value="display"/>
      </item>
      <item>
        <linkId value="PaymentNotice.implicitRules.value"/>
        <text value="A set of rules under which this content was created"/>
        <type value="string"/>
        <required value="false"/>
        <repeats value="false"/>
      </item>
    </item>
    <item>
      <extension url="http://hl7.org/fhir/StructureDefinition/questionnaire-maxOccurs">
        <valueInteger value="1"/>
      </extension>
      <extension url="http://hl7.org/fhir/StructureDefinition/questionnaire-fhirType">
        <valueString value="code"/>
      </extension>
      <linkId value="PaymentNotice.language"/>
      <type value="group"/>
      <required value="false"/>
      <repeats value="true"/>
      <item>
        <extension url="http://hl7.org/fhir/StructureDefinition/questionnaire-itemControl">
          <valueCodeableConcept>
            <coding>
              <system value="http://hl7.org/fhir/questionnaire-item-control"/>
              <code value="flyover"/>
              <display value="Fly-over"/>
            </coding>
          </valueCodeableConcept>
        </extension>
        <text value="The base language in which the resource is written. Language is provided to support indexing and accessibility (typically, services such as text to speech use the language tag). The html language tag in the narrative applies  to the narrative. The language tag on the resource may be used to specify the language of other presentations generated from the data in the resource  Not all the content has to be in the base language. The Resource.language should not be assumed to apply to the narrative automatically. If a language is specified, it should it also be specified on the div element in the html (see rules in HTML5 for information about the relationship between xml:lang and the html lang attribute)."/>
        <type value="display"/>
      </item>
      <item>
        <linkId value="PaymentNotice.language.value"/>
        <text value="language"/>
        <type value="choice"/>
        <required value="false"/>
        <repeats value="false"/>
      </item>
    </item>
    <item>
      <extension url="http://hl7.org/fhir/StructureDefinition/questionnaire-maxOccurs">
        <valueInteger value="1"/>
      </extension>
      <linkId value="PaymentNotice.text"/>
      <text value="Text summary of the resource, for human interpretation"/>
      <type value="group"/>
      <required value="false"/>
      <repeats value="true"/>
      <item>
        <extension url="http://hl7.org/fhir/StructureDefinition/questionnaire-itemControl">
          <valueCodeableConcept>
            <coding>
              <system value="http://hl7.org/fhir/questionnaire-item-control"/>
              <code value="flyover"/>
              <display value="Fly-over"/>
            </coding>
          </valueCodeableConcept>
        </extension>
        <text value="A human-readable narrative that contains a summary of the resource, and may be used to represent the content of the resource to a human. The narrative need not encode all the structured data, but is required to contain sufficient detail to make it &quot;clinically safe&quot; for a human to just read the narrative. Resource definitions may define what content should be represented in the narrative to ensure clinical safety. Contained resources do not have narrative. Resources that are not contained SHOULD have a narrative."/>
        <type value="display"/>
      </item>
    </item>
    <item>
      <linkId value="PaymentNotice.contained"/>
      <text value="Contained, inline Resources"/>
      <type value="group"/>
      <required value="false"/>
      <repeats value="true"/>
      <item>
        <extension url="http://hl7.org/fhir/StructureDefinition/questionnaire-itemControl">
          <valueCodeableConcept>
            <coding>
              <system value="http://hl7.org/fhir/questionnaire-item-control"/>
              <code value="flyover"/>
              <display value="Fly-over"/>
            </coding>
          </valueCodeableConcept>
        </extension>
        <text value="These resources do not have an independent existence apart from the resource that contains them - they cannot be identified independently, and nor can they have their own independent transaction scope. This should never be done when the content can be identified properly, as once identification is lost, it is extremely difficult (and context dependent) to restore it again."/>
        <type value="display"/>
      </item>
    </item>
    <item>
      <linkId value="PaymentNotice.extension"/>
      <text value="Additional Content defined by implementations"/>
      <type value="group"/>
      <required value="false"/>
      <repeats value="true"/>
      <item>
        <extension url="http://hl7.org/fhir/StructureDefinition/questionnaire-itemControl">
          <valueCodeableConcept>
            <coding>
              <system value="http://hl7.org/fhir/questionnaire-item-control"/>
              <code value="flyover"/>
              <display value="Fly-over"/>
            </coding>
          </valueCodeableConcept>
        </extension>
        <text value="May be used to represent additional information that is not part of the basic definition of the resource. In order to make the use of extensions safe and manageable, there is a strict set of governance  applied to the definition and use of extensions. Though any implementer is allowed to define an extension, there is a set of requirements that SHALL be met as part of the definition of the extension. There can be no stigma associated with the use of extensions by any application, project, or standard - regardless of the institution or jurisdiction that uses or defines the extensions.  The use of extensions is what allows the FHIR specification to retain a core level of simplicity for everyone."/>
        <type value="display"/>
      </item>
    </item>
    <item>
      <linkId value="PaymentNotice.modifierExtension"/>
      <text value="Extensions that cannot be ignored"/>
      <type value="group"/>
      <required value="false"/>
      <repeats value="true"/>
      <item>
        <extension url="http://hl7.org/fhir/StructureDefinition/questionnaire-itemControl">
          <valueCodeableConcept>
            <coding>
              <system value="http://hl7.org/fhir/questionnaire-item-control"/>
              <code value="flyover"/>
              <display value="Fly-over"/>
            </coding>
          </valueCodeableConcept>
        </extension>
        <text value="May be used to represent additional information that is not part of the basic definition of the resource, and that modifies the understanding of the element that contains it. Usually modifier elements provide negation or qualification. In order to make the use of extensions safe and manageable, there is a strict set of governance applied to the definition and use of extensions. Though any implementer is allowed to define an extension, there is a set of requirements that SHALL be met as part of the definition of the extension. Applications processing a resource are required to check for modifier extensions. There can be no stigma associated with the use of extensions by any application, project, or standard - regardless of the institution or jurisdiction that uses or defines the extensions.  The use of extensions is what allows the FHIR specification to retain a core level of simplicity for everyone."/>
        <type value="display"/>
      </item>
    </item>
    <item>
      <extension url="http://hl7.org/fhir/StructureDefinition/questionnaire-fhirType">
        <valueString value="Identifier"/>
      </extension>
      <linkId value="PaymentNotice.identifier"/>
      <text value="Business Identifier"/>
      <type value="group"/>
      <required value="false"/>
      <repeats value="true"/>
      <item>
        <extension url="http://hl7.org/fhir/StructureDefinition/questionnaire-itemControl">
          <valueCodeableConcept>
            <coding>
              <system value="http://hl7.org/fhir/questionnaire-item-control"/>
              <code value="flyover"/>
              <display value="Fly-over"/>
            </coding>
          </valueCodeableConcept>
        </extension>
        <text value="The Response business identifier."/>
        <type value="display"/>
      </item>
      <item>
        <linkId value="PaymentNotice.identifier.label"/>
        <text value="label:"/>
        <type value="string"/>
        <required value="false"/>
        <repeats value="false"/>
      </item>
      <item>
        <linkId value="PaymentNotice.identifier.system"/>
        <text value="system:"/>
        <type value="string"/>
        <required value="false"/>
        <repeats value="false"/>
      </item>
      <item>
        <linkId value="PaymentNotice.identifier.value"/>
        <text value="value:"/>
        <type value="string"/>
        <required value="false"/>
        <repeats value="false"/>
      </item>
    </item>
    <item>
      <extension url="http://hl7.org/fhir/StructureDefinition/questionnaire-maxOccurs">
        <valueInteger value="1"/>
      </extension>
      <extension url="http://hl7.org/fhir/StructureDefinition/questionnaire-fhirType">
        <valueString value="Coding"/>
      </extension>
      <linkId value="PaymentNotice.ruleset"/>
      <type value="group"/>
      <required value="false"/>
      <repeats value="true"/>
      <item>
        <extension url="http://hl7.org/fhir/StructureDefinition/questionnaire-itemControl">
          <valueCodeableConcept>
            <coding>
              <system value="http://hl7.org/fhir/questionnaire-item-control"/>
              <code value="flyover"/>
              <display value="Fly-over"/>
            </coding>
          </valueCodeableConcept>
        </extension>
        <text value="The version of the style of resource contents. This should be mapped to the allowable profiles for this and supporting resources."/>
        <type value="display"/>
      </item>
      <item>
        <linkId value="PaymentNotice.ruleset.value"/>
        <text value="Resource version"/>
        <type value="open-choice"/>
        <required value="false"/>
        <repeats value="false"/>
      </item>
    </item>
    <item>
      <extension url="http://hl7.org/fhir/StructureDefinition/questionnaire-maxOccurs">
        <valueInteger value="1"/>
      </extension>
      <extension url="http://hl7.org/fhir/StructureDefinition/questionnaire-fhirType">
        <valueString value="Coding"/>
      </extension>
      <linkId value="PaymentNotice.originalRuleset"/>
      <type value="group"/>
      <required value="false"/>
      <repeats value="true"/>
      <item>
        <extension url="http://hl7.org/fhir/StructureDefinition/questionnaire-itemControl">
          <valueCodeableConcept>
            <coding>
              <system value="http://hl7.org/fhir/questionnaire-item-control"/>
              <code value="flyover"/>
              <display value="Fly-over"/>
            </coding>
          </valueCodeableConcept>
        </extension>
        <text value="The style (standard) and version of the original material which was converted into this resource."/>
        <type value="display"/>
      </item>
      <item>
        <linkId value="PaymentNotice.originalRuleset.value"/>
        <text value="Original version"/>
        <type value="open-choice"/>
        <required value="false"/>
        <repeats value="false"/>
      </item>
    </item>
    <item>
      <extension url="http://hl7.org/fhir/StructureDefinition/questionnaire-maxOccurs">
        <valueInteger value="1"/>
      </extension>
      <extension url="http://hl7.org/fhir/StructureDefinition/questionnaire-fhirType">
        <valueString value="datetime"/>
      </extension>
      <linkId value="PaymentNotice.created"/>
      <type value="group"/>
      <required value="false"/>
      <repeats value="true"/>
      <item>
        <extension url="http://hl7.org/fhir/StructureDefinition/questionnaire-itemControl">
          <valueCodeableConcept>
            <coding>
              <system value="http://hl7.org/fhir/questionnaire-item-control"/>
              <code value="flyover"/>
              <display value="Fly-over"/>
            </coding>
          </valueCodeableConcept>
        </extension>
        <text value="The date when this resource was created."/>
        <type value="display"/>
      </item>
      <item>
        <linkId value="PaymentNotice.created.value"/>
        <text value="Creation date"/>
        <type value="dateTime"/>
        <required value="false"/>
        <repeats value="false"/>
      </item>
    </item>
    <item>
      <extension url="http://hl7.org/fhir/StructureDefinition/questionnaire-maxOccurs">
        <valueInteger value="1"/>
      </extension>
      <linkId value="PaymentNotice.target[x]"/>
      <text value="Insurer or Regulatory body"/>
      <type value="group"/>
      <required value="false"/>
      <repeats value="true"/>
      <item>
        <extension url="http://hl7.org/fhir/StructureDefinition/questionnaire-itemControl">
          <valueCodeableConcept>
            <coding>
              <system value="http://hl7.org/fhir/questionnaire-item-control"/>
              <code value="flyover"/>
              <display value="Fly-over"/>
            </coding>
          </valueCodeableConcept>
        </extension>
        <text value="The Insurer who is target  of the request."/>
        <type value="display"/>
      </item>
      <item>
        <linkId value="PaymentNotice.target[x]._type"/>
        <text value="type"/>
        <type value="choice"/>
        <required value="false"/>
        <repeats value="false"/>
        <options>
          <reference value="#vs2"/>
        </options>
        <item>
          <extension url="http://hl7.org/fhir/StructureDefinition/questionnaire-fhirType">
            <valueString value="Identifier"/>
          </extension>
          <linkId value="PaymentNotice.target[x]._Identifier"/>
          <text value="Identifier"/>
          <type value="group"/>
          <item>
            <linkId value="PaymentNotice.target[x]._Identifier.label"/>
            <text value="label:"/>
            <type value="string"/>
            <required value="false"/>
            <repeats value="false"/>
          </item>
          <item>
            <linkId value="PaymentNotice.target[x]._Identifier.system"/>
            <text value="system:"/>
            <type value="string"/>
            <required value="false"/>
            <repeats value="false"/>
          </item>
          <item>
            <linkId value="PaymentNotice.target[x]._Identifier.value"/>
            <text value="value:"/>
            <type value="string"/>
            <required value="false"/>
            <repeats value="false"/>
          </item>
        </item>
        <item>
          <extension url="http://hl7.org/fhir/StructureDefinition/questionnaire-fhirType">
            <valueString value="Reference"/>
          </extension>
          <linkId value="PaymentNotice.target[x]._Organization"/>
          <type value="group"/>
          <item>
            <extension url="http://hl7.org/fhir/StructureDefinition/questionnaire-allowedResource">
              <valueCode value="Organization"/>
            </extension>
            <extension url="http://hl7.org/fhir/StructureDefinition/questionnaire-referenceFilter">
              <valueString value="subject=$subj&amp;patient=$subj&amp;encounter=$encounter"/>
            </extension>
            <linkId value="PaymentNotice.target[x]._Organization.value"/>
            <text value="Organization"/>
            <type value="reference"/>
            <required value="false"/>
            <repeats value="false"/>
          </item>
        </item>
      </item>
    </item>
    <item>
      <extension url="http://hl7.org/fhir/StructureDefinition/questionnaire-maxOccurs">
        <valueInteger value="1"/>
      </extension>
      <linkId value="PaymentNotice.provider[x]"/>
      <text value="Responsible practitioner"/>
      <type value="group"/>
      <required value="false"/>
      <repeats value="true"/>
      <item>
        <extension url="http://hl7.org/fhir/StructureDefinition/questionnaire-itemControl">
          <valueCodeableConcept>
            <coding>
              <system value="http://hl7.org/fhir/questionnaire-item-control"/>
              <code value="flyover"/>
              <display value="Fly-over"/>
            </coding>
          </valueCodeableConcept>
        </extension>
        <text value="The practitioner who is responsible for the services rendered to the patient."/>
        <type value="display"/>
      </item>
      <item>
        <linkId value="PaymentNotice.provider[x]._type"/>
        <text value="type"/>
        <type value="choice"/>
        <required value="false"/>
        <repeats value="false"/>
        <options>
          <reference value="#vs3"/>
        </options>
        <item>
          <extension url="http://hl7.org/fhir/StructureDefinition/questionnaire-fhirType">
            <valueString value="Identifier"/>
          </extension>
          <linkId value="PaymentNotice.provider[x]._Identifier"/>
          <text value="Identifier"/>
          <type value="group"/>
          <item>
            <linkId value="PaymentNotice.provider[x]._Identifier.label"/>
            <text value="label:"/>
            <type value="string"/>
            <required value="false"/>
            <repeats value="false"/>
          </item>
          <item>
            <linkId value="PaymentNotice.provider[x]._Identifier.system"/>
            <text value="system:"/>
            <type value="string"/>
            <required value="false"/>
            <repeats value="false"/>
          </item>
          <item>
            <linkId value="PaymentNotice.provider[x]._Identifier.value"/>
            <text value="value:"/>
            <type value="string"/>
            <required value="false"/>
            <repeats value="false"/>
          </item>
        </item>
        <item>
          <extension url="http://hl7.org/fhir/StructureDefinition/questionnaire-fhirType">
            <valueString value="Reference"/>
          </extension>
          <linkId value="PaymentNotice.provider[x]._Practitioner"/>
          <type value="group"/>
          <item>
            <extension url="http://hl7.org/fhir/StructureDefinition/questionnaire-allowedResource">
              <valueCode value="Practitioner"/>
            </extension>
            <extension url="http://hl7.org/fhir/StructureDefinition/questionnaire-referenceFilter">
              <valueString value="subject=$subj&amp;patient=$subj&amp;encounter=$encounter"/>
            </extension>
            <linkId value="PaymentNotice.provider[x]._Practitioner.value"/>
            <text value="Practitioner"/>
            <type value="reference"/>
            <required value="false"/>
            <repeats value="false"/>
          </item>
        </item>
      </item>
    </item>
    <item>
      <extension url="http://hl7.org/fhir/StructureDefinition/questionnaire-maxOccurs">
        <valueInteger value="1"/>
      </extension>
      <linkId value="PaymentNotice.organization[x]"/>
      <text value="Responsible organization"/>
      <type value="group"/>
      <required value="false"/>
      <repeats value="true"/>
      <item>
        <extension url="http://hl7.org/fhir/StructureDefinition/questionnaire-itemControl">
          <valueCodeableConcept>
            <coding>
              <system value="http://hl7.org/fhir/questionnaire-item-control"/>
              <code value="flyover"/>
              <display value="Fly-over"/>
            </coding>
          </valueCodeableConcept>
        </extension>
        <text value="The organization which is responsible for the services rendered to the patient."/>
        <type value="display"/>
      </item>
      <item>
        <linkId value="PaymentNotice.organization[x]._type"/>
        <text value="type"/>
        <type value="choice"/>
        <required value="false"/>
        <repeats value="false"/>
        <options>
          <reference value="#vs4"/>
        </options>
        <item>
          <extension url="http://hl7.org/fhir/StructureDefinition/questionnaire-fhirType">
            <valueString value="Identifier"/>
          </extension>
          <linkId value="PaymentNotice.organization[x]._Identifier"/>
          <text value="Identifier"/>
          <type value="group"/>
          <item>
            <linkId value="PaymentNotice.organization[x]._Identifier.label"/>
            <text value="label:"/>
            <type value="string"/>
            <required value="false"/>
            <repeats value="false"/>
          </item>
          <item>
            <linkId value="PaymentNotice.organization[x]._Identifier.system"/>
            <text value="system:"/>
            <type value="string"/>
            <required value="false"/>
            <repeats value="false"/>
          </item>
          <item>
            <linkId value="PaymentNotice.organization[x]._Identifier.value"/>
            <text value="value:"/>
            <type value="string"/>
            <required value="false"/>
            <repeats value="false"/>
          </item>
        </item>
        <item>
          <extension url="http://hl7.org/fhir/StructureDefinition/questionnaire-fhirType">
            <valueString value="Reference"/>
          </extension>
          <linkId value="PaymentNotice.organization[x]._Organization"/>
          <type value="group"/>
          <item>
            <extension url="http://hl7.org/fhir/StructureDefinition/questionnaire-allowedResource">
              <valueCode value="Organization"/>
            </extension>
            <extension url="http://hl7.org/fhir/StructureDefinition/questionnaire-referenceFilter">
              <valueString value="subject=$subj&amp;patient=$subj&amp;encounter=$encounter"/>
            </extension>
            <linkId value="PaymentNotice.organization[x]._Organization.value"/>
            <text value="Organization"/>
            <type value="reference"/>
            <required value="false"/>
            <repeats value="false"/>
          </item>
        </item>
      </item>
    </item>
    <item>
      <extension url="http://hl7.org/fhir/StructureDefinition/questionnaire-maxOccurs">
        <valueInteger value="1"/>
      </extension>
      <linkId value="PaymentNotice.request[x]"/>
      <text value="Request reference"/>
      <type value="group"/>
      <required value="false"/>
      <repeats value="true"/>
      <item>
        <extension url="http://hl7.org/fhir/StructureDefinition/questionnaire-itemControl">
          <valueCodeableConcept>
            <coding>
              <system value="http://hl7.org/fhir/questionnaire-item-control"/>
              <code value="flyover"/>
              <display value="Fly-over"/>
            </coding>
          </valueCodeableConcept>
        </extension>
        <text value="Reference of resource to reverse."/>
        <type value="display"/>
      </item>
      <item>
        <linkId value="PaymentNotice.request[x]._type"/>
        <text value="type"/>
        <type value="choice"/>
        <required value="false"/>
        <repeats value="false"/>
        <options>
          <reference value="#vs5"/>
        </options>
        <item>
          <extension url="http://hl7.org/fhir/StructureDefinition/questionnaire-fhirType">
            <valueString value="Identifier"/>
          </extension>
          <linkId value="PaymentNotice.request[x]._Identifier"/>
          <text value="Identifier"/>
          <type value="group"/>
          <item>
            <linkId value="PaymentNotice.request[x]._Identifier.label"/>
            <text value="label:"/>
            <type value="string"/>
            <required value="false"/>
            <repeats value="false"/>
          </item>
          <item>
            <linkId value="PaymentNotice.request[x]._Identifier.system"/>
            <text value="system:"/>
            <type value="string"/>
            <required value="false"/>
            <repeats value="false"/>
          </item>
          <item>
            <linkId value="PaymentNotice.request[x]._Identifier.value"/>
            <text value="value:"/>
            <type value="string"/>
            <required value="false"/>
            <repeats value="false"/>
          </item>
        </item>
        <item>
          <extension url="http://hl7.org/fhir/StructureDefinition/questionnaire-fhirType">
            <valueString value="Reference"/>
          </extension>
          <linkId value="PaymentNotice.request[x]._Resource"/>
          <type value="group"/>
          <item>
            <extension url="http://hl7.org/fhir/StructureDefinition/questionnaire-allowedResource">
              <valueCode value="Resource"/>
            </extension>
            <extension url="http://hl7.org/fhir/StructureDefinition/questionnaire-referenceFilter">
              <valueString value="subject=$subj&amp;patient=$subj&amp;encounter=$encounter"/>
            </extension>
            <linkId value="PaymentNotice.request[x]._Resource.value"/>
            <text value="Resource"/>
            <type value="reference"/>
            <required value="false"/>
            <repeats value="false"/>
          </item>
        </item>
      </item>
    </item>
    <item>
      <extension url="http://hl7.org/fhir/StructureDefinition/questionnaire-maxOccurs">
        <valueInteger value="1"/>
      </extension>
      <linkId value="PaymentNotice.response[x]"/>
      <text value="Response reference"/>
      <type value="group"/>
      <required value="false"/>
      <repeats value="true"/>
      <item>
        <extension url="http://hl7.org/fhir/StructureDefinition/questionnaire-itemControl">
          <valueCodeableConcept>
            <coding>
              <system value="http://hl7.org/fhir/questionnaire-item-control"/>
              <code value="flyover"/>
              <display value="Fly-over"/>
            </coding>
          </valueCodeableConcept>
        </extension>
        <text value="Reference of response to resource to reverse."/>
        <type value="display"/>
      </item>
      <item>
        <linkId value="PaymentNotice.response[x]._type"/>
        <text value="type"/>
        <type value="choice"/>
        <required value="false"/>
        <repeats value="false"/>
        <options>
          <reference value="#vs6"/>
        </options>
        <item>
          <extension url="http://hl7.org/fhir/StructureDefinition/questionnaire-fhirType">
            <valueString value="Identifier"/>
          </extension>
          <linkId value="PaymentNotice.response[x]._Identifier"/>
          <text value="Identifier"/>
          <type value="group"/>
          <item>
            <linkId value="PaymentNotice.response[x]._Identifier.label"/>
            <text value="label:"/>
            <type value="string"/>
            <required value="false"/>
            <repeats value="false"/>
          </item>
          <item>
            <linkId value="PaymentNotice.response[x]._Identifier.system"/>
            <text value="system:"/>
            <type value="string"/>
            <required value="false"/>
            <repeats value="false"/>
          </item>
          <item>
            <linkId value="PaymentNotice.response[x]._Identifier.value"/>
            <text value="value:"/>
            <type value="string"/>
            <required value="false"/>
            <repeats value="false"/>
          </item>
        </item>
        <item>
          <extension url="http://hl7.org/fhir/StructureDefinition/questionnaire-fhirType">
            <valueString value="Reference"/>
          </extension>
          <linkId value="PaymentNotice.response[x]._Resource"/>
          <type value="group"/>
          <item>
            <extension url="http://hl7.org/fhir/StructureDefinition/questionnaire-allowedResource">
              <valueCode value="Resource"/>
            </extension>
            <extension url="http://hl7.org/fhir/StructureDefinition/questionnaire-referenceFilter">
              <valueString value="subject=$subj&amp;patient=$subj&amp;encounter=$encounter"/>
            </extension>
            <linkId value="PaymentNotice.response[x]._Resource.value"/>
            <text value="Resource"/>
            <type value="reference"/>
            <required value="false"/>
            <repeats value="false"/>
          </item>
        </item>
      </item>
    </item>
    <item>
      <extension url="http://hl7.org/fhir/StructureDefinition/questionnaire-minOccurs">
        <valueInteger value="1"/>
      </extension>
      <extension url="http://hl7.org/fhir/StructureDefinition/questionnaire-maxOccurs">
        <valueInteger value="1"/>
      </extension>
      <extension url="http://hl7.org/fhir/StructureDefinition/questionnaire-fhirType">
        <valueString value="Coding"/>
      </extension>
      <linkId value="PaymentNotice.paymentStatus"/>
      <type value="group"/>
      <required value="true"/>
      <repeats value="true"/>
      <item>
        <extension url="http://hl7.org/fhir/StructureDefinition/questionnaire-itemControl">
          <valueCodeableConcept>
            <coding>
              <system value="http://hl7.org/fhir/questionnaire-item-control"/>
              <code value="flyover"/>
              <display value="Fly-over"/>
            </coding>
          </valueCodeableConcept>
        </extension>
        <text value="The payment status, typically paid: payment sent, cleared: payment received."/>
        <type value="display"/>
      </item>
      <item>
        <linkId value="PaymentNotice.paymentStatus.value"/>
        <text value="Status of the payment"/>
        <type value="open-choice"/>
        <required value="false"/>
        <repeats value="false"/>
      </item>
    </item>
    <item>
      <extension url="http://hl7.org/fhir/StructureDefinition/questionnaire-maxOccurs">
        <valueInteger value="1"/>
      </extension>
      <extension url="http://hl7.org/fhir/StructureDefinition/questionnaire-fhirType">
        <valueString value="datetime"/>
      </extension>
      <linkId value="PaymentNotice.statusDate"/>
      <type value="group"/>
      <required value="false"/>
      <repeats value="true"/>
      <item>
        <extension url="http://hl7.org/fhir/StructureDefinition/questionnaire-itemControl">
          <valueCodeableConcept>
            <coding>
              <system value="http://hl7.org/fhir/questionnaire-item-control"/>
              <code value="flyover"/>
              <display value="Fly-over"/>
            </coding>
          </valueCodeableConcept>
        </extension>
        <text value="The date when the above payment action occurrred."/>
        <type value="display"/>
      </item>
      <item>
        <linkId value="PaymentNotice.statusDate.value"/>
        <text value="Payment or clearing date"/>
        <type value="dateTime"/>
        <required value="false"/>
        <repeats value="false"/>
      </item>
    </item>
  </item>
</Questionnaire>